Folder: DECiM/examples/Li_Graphite_Half_Cell

Note: README.md
# DEC*i*M

DEC*i*M (Determination of Equivalent Circuit Models) is an equivalent circuit model fitting program for impedance data. It is a GUI-based program, written entirely in Python.

## Prerequisites

The current DEC*i*M version (1.2.13) requires the following software to already be installed on your computer:

- Python 3.10 or higher (including copy, webbrowser, functools and tkinter as part of the Python Standard Library)
- NumPy
- SciPy
- Matplotlib

## Installation

Download the entire project. If the prerequisites are already installed, DEC*i*M can be started immediately.

## Usage

Open your preferred program to access the command line and navigate to the `src` directory of the DEC*i*M distribution. Provided your Python installation allows you to run Python 3 as `python`, you can start DEC*i*M from the command line as follows:

```
python DECiM.py
```

For detailed operating instructions, please consult the PDF manual.

## Citing

If you use DEC*i*M for work leading to a scholarly publication, please cite the PDF manual, or cite the publication describing DEC*i*M once it has appeared.

File: Graphite_EIS_after_charge_discharge_study_100kHz_10mHz.txt
Frequency (Hz)	Zre (ohms)	Zim (ohms)
100000	6.75104	0.0416842
92611.875	6.79575	-0.114649
85769.6	6.86895	-0.267689
79432.8	6.92019	-0.384518
73564.2	6.99675	-0.562811
68129.2	7.05963	-0.699025
63095.7	7.10388	-0.837592
58434.1	7.16971	-0.962626
54117	7.23728	-1.10137
50118.7	7.30232	-1.23595
46415.9	7.36603	-1.37019
42986.6	7.44002	-1.506
39810.7	7.51123	-1.64226
36869.4	7.58772	-1.77963
34145.5	7.66339	-1.92033
31622.8	7.74243	-2.06645
29286.4	7.82275	-2.211
27122.7	7.91168	-2.36691
25118.9	8.00346	-2.51931
23263	8.10084	-2.67961
21544.3	8.20009	-2.84528
19952.6	8.3031	-3.01278
18478.5	8.41577	-3.19438
17113.3	8.52945	-3.37691
15848.9	8.65342	-3.56763
14678	8.78189	-3.76608
13593.6	8.91402	-3.97853
12589.3	9.05722	-4.19088
11659.1	9.20865	-4.41729
10797.8	9.36687	-4.65123
10000	9.52987	-4.89441
9261.18	9.70788	-5.14695
8576.96	9.89816	-5.41084
7943.28	10.0947	-5.68855
7356.42	10.3087	-5.9769
6812.92	10.526	-6.27782
6309.57	10.7638	-6.58524
5843.41	11.0121	-6.91386
5411.69	11.2783	-7.25091
5011.87	11.5595	-7.6054
4641.59	11.8542	-7.96071
4298.66	12.1696	-8.34023
3981.07	12.505	-8.73424
3686.94	12.8486	-9.14339
3414.55	13.2247	-9.55549
3162.28	13.6194	-9.99173
2928.64	14.0325	-10.435
2712.27	14.4747	-10.8959
2511.89	14.9465	-11.3699
2326.3	15.433	-11.8639
2154.43	15.95	-12.3677
1995.26	16.4986	-12.8773
1847.85	17.0784	-13.4118
1711.33	17.6987	-13.9688
1584.89	18.3312	-14.5026
1467.8	19.0206	-15.0801
1359.36	19.736	-15.6303
1258.93	20.4815	-16.2226
1165.91	21.2802	-16.805
1079.77	22.1164	-17.4043
1000	22.9891	-18.0092
926.118	23.9202	-18.6024
857.696	24.8734	-19.1954
794.328	25.9017	-19.8077
735.642	26.9651	-20.4118
681.292	28.0656	-20.9907
630.957	29.2233	-21.5478
584.341	30.4119	-22.0805
541.169	31.6728	-22.6057
501.187	32.9786	-23.1196
464.159	34.3294	-23.5902
429.866	35.7185	-24.0534
398.107	37.1695	-24.4149
368.694	38.6347	-24.7791
341.455	40.1225	-25.0765
316.228	41.6916	-25.3521
292.864	43.2557	-25.5306
271.227	44.8396	-25.6618
251.189	46.4694	-25.7397
232.63	48.1021	-25.7362
215.443	49.6908	-25.7418
199.526	51.3254	-25.589
184.785	52.8064	-25.3851
171.133	54.4878	-25.1472
158.489	55.972	-24.7831
146.78	57.4049	-24.4446
135.936	58.9324	-24.0881
125.893	60.2508	-23.6856
116.591	61.618	-23.0988
107.977	62.9438	-22.6043
99.9999	64.2414	-21.9769
92.6118	65.4105	-21.3656
85.7696	66.5276	-20.8045
79.4328	67.5912	-20.234
73.5642	68.6054	-19.593
68.1292	69.5018	-18.9455
63.0957	70.3848	-18.3716
58.4341	71.2435	-17.6727
54.1169	72.0597	-17.1314
50.1187	72.7768	-16.5978
46.4159	73.4193	-16.0444
42.9866	74.0723	-15.5029
39.8107	74.661	-15.0341
36.8694	75.2109	-14.5448
34.1455	75.7147	-14.1329
31.6228	76.2424	-13.7303
29.2864	76.651	-13.3
27.1227	77.0779	-13.0059
25.1189	77.4911	-12.7448
23.263	77.9407	-12.4659
21.5443	78.3057	-12.2115
19.9526	78.6053	-11.9822
18.4785	78.958	-11.9183
17.1133	79.2976	-11.7856
15.8489	79.5387	-11.7424
14.678	79.9641	-11.7032
13.5936	80.2187	-11.7372
12.5893	80.5377	-11.711
11.6591	80.8842	-11.8865
10.7977	81.1332	-12.022
10	81.4896	-12.1023
9.26118	81.9011	-12.3969
8.57695	82.2134	-12.7507
7.94327	82.4515	-12.9766
7.35642	82.9188	-13.286
6.81292	83.3025	-13.8007
6.30957	83.5823	-14.1712
5.84341	84.11	-14.5959
5.41169	84.6842	-15.2101
5.01187	85.1807	-15.9124
4.64159	85.563	-16.5375
4.29866	86.1324	-17.0883
3.98107	86.8983	-17.6902
3.68694	87.6517	-18.6068
3.41455	88.2941	-19.4232
3.16228	89.0368	-20.2192
2.92864	89.8561	-20.9423
2.71227	90.8738	-21.627
2.51188	91.9372	-22.4959
2.3263	93.1589	-23.4672
2.15443	94.4093	-24.5476
1.99526	95.684	-25.5215
1.84785	96.9925	-26.5506
1.71133	98.0898	-27.5318
1.58489	99.5449	-28.4265
1.4678	101.132	-29.4242
1.35936	102.695	-30.2163
1.25893	104.336	-31.0411
1.16591	105.978	-31.6926
1.07977	107.884	-32.4109
0.999999	109.714	-32.922
0.926118	111.668	-33.3351
0.857695	113.659	-33.9079
0.794328	115.71	-34.2511
0.735642	117.612	-34.5711
0.681292	119.733	-34.819
0.630957	121.717	-35.1989
0.584341	123.774	-35.4016
0.541169	125.755	-35.3702
0.501187	127.633	-35.5246
0.464159	129.606	-35.4226
0.429866	131.44	-35.4325
0.398107	133.296	-35.454
0.368694	135.11	-35.3017
0.341454	136.989	-35.1655
0.316227	138.555	-35.1994
0.292864	140.221	-35.0395
0.271227	141.831	-34.9006
0.251188	143.527	-34.8919
0.23263	145.015	-34.8158
0.215443	146.658	-34.8467
0.199526	147.952	-34.7868
0.184785	149.444	-34.8224
0.171133	150.854	-34.8086
0.158489	152.135	-34.9905
0.14678	153.458	-35.1159
0.135936	154.755	-35.3725
0.125893	156.171	-35.4897
0.116591	157.553	-35.8116
0.107977	158.926	-36.2345
0.0999999	160.347	-36.6047
0.0926118	161.71	-37.2769
0.0857695	163.034	-37.9081
0.0794328	164.74	-38.5857
0.0735642	166.101	-39.2201
0.0681292	167.488	-39.7729
0.0630957	168.922	-40.8295
0.0584341	169.728	-41.7567
0.0541169	171.758	-42.5769
0.0501187	173.846	-43.6893
0.0464159	175.186	-44.7216
0.0429866	176.944	-46.2196
0.0398107	178.536	-47.6177
0.0368694	180.531	-48.9412
0.0341454	182.445	-50.6043
0.0316227	184.425	-52.1969
0.0292864	186.825	-53.9622
0.0271227	189.165	-55.985
0.0251188	191.151	-57.5096
0.023263	193.828	-59.6631
0.0215443	196.412	-62.0583
0.0199526	198.242	-64.8932
0.0184785	201.892	-66.5148
0.0171133	204.339	-69.5471
0.0158489	208.034	-71.5619
0.014678	211.643	-74.3162
0.0135936	214.455	-76.8887
0.0125892	218.378	-80.0757
0.0116591	222.124	-82.9128
0.0107977	225.922	-86.4855
0.00999999	229.978	-89.3899