Folder: DECiM/manual/figures/Examples/Karan

Note: README.md
# DEC*i*M

DEC*i*M (Determination of Equivalent Circuit Models) is an equivalent circuit model fitting program for impedance data. It is a GUI-based program, written entirely in Python.

## Prerequisites

The current DEC*i*M version (1.2.13) requires the following software to already be installed on your computer:

- Python 3.10 or higher (including copy, webbrowser, functools and tkinter as part of the Python Standard Library)
- NumPy
- SciPy
- Matplotlib

## Installation

Download the entire project. If the prerequisites are already installed, DEC*i*M can be started immediately.

## Usage

Open your preferred program to access the command line and navigate to the `src` directory of the DEC*i*M distribution. Provided your Python installation allows you to run Python 3 as `python`, you can start DEC*i*M from the command line as follows:

```
python DECiM.py
```

For detailed operating instructions, please consult the PDF manual.

## Citing

If you use DEC*i*M for work leading to a scholarly publication, please cite the PDF manual, or cite the publication describing DEC*i*M once it has appeared.

File: Graphite EIS after 1st Charge_100kHz-100mHz_2.954834mV.txt
Frequency (Hz)	Zre (ohms)	Zim (ohms)
100000	7.85344	0.235864
92611.875	7.90811	0.04605649
85769.6	7.96218	-0.122665
79432.8	8.00817	-0.300129
73564.2	8.07104	-0.480102
68129.2	8.07671	-0.641175
63095.7	8.17782	-0.805147
58434.1	8.23318	-0.985308
54117	8.28857	-1.1422
50118.7	8.34163	-1.296
46415.9	8.41987	-1.47928
42986.6	8.48016	-1.64519
39810.7	8.54877	-1.81549
36869.4	8.61655	-1.99591
34145.5	8.68802	-2.17875
31622.8	8.77136	-2.35868
29286.4	8.85399	-2.55177
27122.7	8.93966	-2.75581
25118.9	9.02888	-2.96565
23263	9.1234	-3.17626
21544.3	9.21991	-3.40875
19952.6	9.32513	-3.63575
18478.5	9.4357	-3.87875
17113.3	9.56155	-4.13852
15848.9	9.68452	-4.40926
14678	9.82429	-4.68787
13593.6	9.96253	-4.98571
12589.3	10.131	-5.29925
11659.1	10.2916	-5.62213
10797.8	10.4758	-5.96311
10000	10.6542	-6.32345
9261.18	10.8731	-6.7001
8576.96	11.0814	-7.09587
7943.28	11.3228	-7.51063
7356.42	11.5893	-7.9449
6812.92	11.8556	-8.39153
6309.57	12.1602	-8.86724
5843.41	12.4798	-9.36469
5411.69	12.8292	-9.87988
5011.87	13.1942	-10.4316
4641.59	13.6018	-10.9902
4298.66	14.0346	-11.5812
3981.07	14.5047	-12.1846
3686.94	15.0166	-12.808
3414.55	15.552	-13.4585
3162.28	16.1457	-14.1366
2928.64	16.7533	-14.823
2712.27	17.4465	-15.5155
2511.89	18.1644	-16.25
2326.3	18.9391	-16.9842
2154.43	19.7617	-17.7285
1995.26	20.674	-18.4657
1847.85	21.6077	-19.2273
1711.33	22.6163	-19.9871
1584.89	23.6738	-20.7194
1467.8	24.8021	-21.4477
1359.36	25.9677	-22.1704
1258.93	27.2026	-22.8788
1165.91	28.5068	-23.5472
1079.77	29.8535	-24.1945
1000	31.2571	-24.8134
926.118	32.7307	-25.398
857.696	34.226	-25.9287
794.328	35.7394	-26.4301
735.642	37.3326	-26.884
681.292	38.9227	-27.2629
630.957	40.5379	-27.5777
584.341	42.2076	-27.8803
541.169	43.8776	-28.168
501.187	45.5382	-28.3276
464.159	47.2207	-28.5065
429.866	48.9103	-28.5916
398.107	50.6038	-28.597
368.694	52.2612	-28.6322
341.455	53.9456	-28.5566
316.228	55.6129	-28.4247
292.864	57.2005	-28.3006
271.227	58.8621	-28.1492
251.189	60.4059	-27.8701
232.63	61.9716	-27.7679
215.443	63.3887	-27.3758
199.526	64.9388	-27.1335
184.785	66.3905	-26.6534
171.133	67.7929	-26.3882
158.489	69.2225	-25.9576
146.78	70.4257	-25.5199
135.936	71.7539	-25.3478
125.893	72.9181	-24.8966
116.591	74.1801	-24.45
107.977	75.3147	-24.1889
99.9999	76.4546	-23.8147
92.6118	77.5757	-23.3893
85.7696	78.5763	-23.1073
79.4328	79.6207	-22.7758
73.5642	80.6533	-22.4863
68.1292	81.6561	-22.2708
63.0957	82.6422	-21.9805
58.4341	83.4922	-21.7634
54.1169	84.4513	-21.5694
50.1187	85.3072	-21.3609
46.4159	86.1427	-21.2531
42.9866	87.0129	-21.2573
39.8107	88.0132	-21.1845
36.8694	88.7679	-21.1104
34.1455	89.6264	-21.0706
31.6228	90.5511	-21.1867
29.2864	91.3784	-21.1583
27.1227	92.2395	-21.3162
25.1189	93.0248	-21.3451
23.263	93.922	-21.5541
21.5443	94.8118	-21.6856
19.9526	95.6809	-21.8505
18.4785	96.69	-22.1297
17.1133	97.4879	-22.3354
15.8489	98.4371	-22.6387
14.678	99.4666	-23.0033
13.5936	100.345	-23.2594
12.5893	101.335	-23.5752
11.6591	102.331	-24.0273
10.7977	103.229	-24.3392
10	104.405	-24.6359
9.26118	105.473	-25.2614
8.57695	106.365	-25.7124
7.94327	107.479	-26.1169
7.35642	108.724	-26.6203
6.81292	109.676	-27.2797
6.30957	110.707	-27.6446
5.84341	112.079	-28.2583
5.41169	113.392	-29.0914
5.01187	114.451	-29.7633
4.64159	115.622	-30.4002
4.29866	117.044	-31.0241
3.98107	118.436	-31.838
3.68694	119.675	-32.8356
3.41455	120.859	-33.6611
3.16228	122.21	-34.3024
2.92864	123.757	-35.1369
2.71227	125.374	-36.1506
2.51188	126.974	-37.2471
2.3263	128.388	-38.4238
2.15443	129.751	-39.6678
1.99526	131.144	-40.8668
1.84785	132.655	-42.1362
1.71133	134.163	-43.4527
1.58489	135.718	-44.8776
1.4678	137.281	-46.2376
1.35936	139.146	-47.5567
1.25893	140.822	-49.0965
1.16591	142.714	-50.7343
1.07977	144.6	-52.5662
0.999999	146.629	-54.3864
0.926118	148.779	-56.6152
0.857695	150.944	-58.7338
0.794328	153.101	-61.0919
0.735642	155.315	-63.7099
0.681292	157.776	-66.3582
0.630957	160.304	-69.0815
0.584341	162.824	-72.1549
0.541169	165.197	-75.1369
0.501187	167.746	-78.3284
0.464159	170.473	-81.7058
0.429866	173.129	-85.3261
0.398107	175.941	-89.1194
0.368694	179.297	-93.3936
0.341454	182.399	-97.5508
0.316227	185.773	-102.028
0.292864	189.058	-106.664
0.271227	193.118	-111.642
0.251188	197.169	-116.659
0.23263	201.218	-122.517
0.215443	205.94	-128.437
0.199526	210.44	-134.221
0.184785	215.187	-140.834
0.171133	219.864	-147.597
0.158489	225.339	-154.61
0.14678	231.048	-162.286
0.135936	236.915	-170.518
0.125893	243.754	-178.582
0.116591	250.466	-187.939
0.107977	257.626	-197.774
0.09999989	265.726	-207.492